"File name:", "C:\Documents and Settings\XPMUser\デスクトップ\Norway_COEXST\20140821_W190PD3GT_34839_Skinny_2floats.obj\20140821_W190PD3GT_34839_Skinny_2floats.obj"
"Channel:", "Acceleration-X"
"Units:", "count"
"Total record:",  1
"Record No.:",  1
"Start location:", 0
"Start date:", "2014/08/21"
"Start time:", "10:10:00"
"Data size:", 467036
"Interval(Sec):", 0.0625000
1951.000
1949.000
1946.000
1949.000
1949.000
1950.000
1951.000
1949.000
1949.000
1949.000
1949.000
1950.000
1950.000
1945.000
1951.000
1978.000
1927.000
1952.000
1888.000
1890.000
1937.000
1928.000
1857.000
1877.000
1864.000
1806.000
1823.000
1812.000
1779.000
1773.000
1696.000
1748.000
1727.000
1706.000
1884.000
1994.000
1969.000
1974.000
1741.000
1823.000
1772.000
1817.000
1703.000
1781.000
1756.000
1759.000
1772.000
1783.000
1781.000
1771.000
1775.000
1766.000
1785.000
1770.000
1767.000
1771.000
1779.000
1778.000
1765.000
1770.000
1778.000
1773.000
1775.000
1765.000
1769.000
1769.000
1777.000
1766.000
1762.000
1776.000
1769.000
1760.000
1771.000
1771.000
1777.000
1761.000
1771.000
1768.000
1772.000
1775.000
1766.000
1768.000
1768.000
1762.000
1769.000
1771.000
1772.000
1762.000
1770.000
1754.000
1770.000
1779.000
1721.000
1794.000
1678.000
1686.000
1509.000
1741.000
1730.000
1597.000
1650.000
1505.000
1765.000
1786.000
1747.000
1880.000
1923.000
1939.000
2037.000
2027.000
2057.000
2103.000
1995.000
1937.000
1899.000
1869.000
1893.000
1922.000
1947.000
1898.000
1907.000
1924.000
1988.000
1909.000
1910.000
1943.000
1960.000
1923.000
1939.000
1928.000
1939.000
1935.000
1907.000
1914.000
1935.000
1912.000
1895.000
1887.000
1925.000
1925.000
1930.000
1918.000
1935.000
1932.000
1925.000
1940.000
1940.000
1938.000
1936.000
1934.000
1929.000
1939.000
1941.000
1935.000
1934.000
1937.000
1928.000
1940.000
1935.000
1941.000
1942.000
1932.000
1951.000
1941.000
1944.000
1959.000
1958.000
2008.000
2160.000
2133.000
2223.000
2203.000
2207.000
2198.000
2178.000
2182.000
2176.000
2137.000
2140.000
2148.000
2142.000
2170.000
2147.000
2210.000
2203.000
2279.000
2263.000
2285.000
2337.000
2355.000
2111.000
2329.000
2134.000
2304.000
2647.000
2615.000
2329.000
2288.000
2295.000
2421.000
2661.000
2390.000
2290.000
2196.000
2199.000
2181.000
2179.000
2205.000
2221.000
2206.000
2197.000
2084.000
2026.000
2046.000
2045.000
2091.000
2025.000
2064.000
1934.000
2112.000
2043.000
2004.000
1855.000
1846.000
1770.000
1816.000
1708.000
1771.000
1566.000
1601.000
1569.000
1685.000
1579.000
1576.000
1505.000
1773.000
1414.000
1714.000
1533.000
1688.000
1581.000
1460.000
1537.000
1673.000
1563.000
1623.000
1525.000
1492.000
1548.000
1572.000
1534.000
1646.000
1628.000
2842.000
2011.000
2081.000
2199.000
2230.000
2236.000
2268.000
2271.000
2783.000
2363.000
2122.000
1896.000
1808.000
1720.000
1567.000
1754.000
1603.000
1698.000
1898.000
2287.000
2142.000
2471.000
2314.000
2371.000
2095.000
2468.000
2111.000
1911.000
1514.000
1869.000
2107.000
2062.000
2231.000
2124.000
2782.000
2062.000
2097.000
2125.000
2147.000
2162.000
2148.000
2130.000
2108.000
2087.000
2057.000
2030.000
1996.000
1979.000
1958.000
1938.000
1923.000
1917.000
1907.000
1901.000
1900.000
1906.000
1911.000
1914.000
1912.000
1912.000
1911.000
1908.000
1911.000
1911.000
1911.000
1911.000
1909.000
1909.000
1912.000
1910.000
1907.000
1913.000
1911.000
1911.000
1911.000
1909.000
1909.000
1911.000
1910.000
1909.000
1913.000
1910.000
1910.000
1912.000
1910.000
1909.000
1909.000
1910.000
1911.000
1912.000
1910.000
1912.000
1911.000
1908.000
1911.000
1913.000
1910.000
1910.000
1910.000
1911.000
1911.000
1910.000
1910.000
1911.000
1909.000
1909.000
1911.000
1911.000
1911.000
1911.000
1911.000
1910.000
1911.000
1911.000
1911.000
1913.000
1911.000
1910.000
1910.000
1910.000
1908.000
1909.000
1910.000
1909.000
1910.000
1910.000
1912.000
1912.000
1909.000
1910.000
1913.000
1911.000
1911.000
1911.000
1911.000
1911.000
1911.000
1910.000
1909.000
1911.000
1910.000
1910.000
1912.000
1909.000
1912.000
1913.000
1911.000
1911.000
1910.000
1913.000
1909.000
1911.000
1910.000
1911.000
1910.000
1910.000
1914.000
1911.000
1911.000
1915.000
1908.000
1908.000
1912.000
1908.000
1913.000
1913.000
1908.000
1910.000
1910.000
1910.000
1914.000
1909.000
1907.000
1910.000
1910.000
1912.000
1915.000
1907.000
1909.000
1913.000
1910.000
1911.000
1911.000
1910.000
1909.000
1913.000
1911.000
1909.000
1912.000
1911.000
1913.000
1909.000
1908.000
1914.000
1911.000
1910.000
1915.000
1908.000
1910.000
1911.000
1910.000
1912.000
1911.000
1910.000
1910.000
1910.000
1910.000
1912.000
1911.000
1912.000
1913.000
1909.000
1907.000
1911.000
1909.000
1909.000
1912.000
1910.000
1911.000
1910.000
1912.000
1909.000
1910.000
1913.000
1910.000
1909.000
1911.000
1911.000
1911.000
1428.000
1711.000
1427.000
1626.000
1601.000
1821.000
1858.000
1972.000
1925.000
1818.000
1850.000
1861.000
1802.000
1917.000
1815.000
1919.000
2129.000
2116.000
2243.000
2243.000
2244.000
2253.000
2298.000
2254.000
2274.000
2255.000
2276.000
2244.000
2289.000
2271.000
2290.000
2221.000
2199.000
2087.000
2108.000
2085.000
2077.000
2101.000
2084.000
2080.000
2082.000
2068.000
2083.000
2132.000
2069.000
2068.000
2079.000
2101.000
2075.000
2082.000
2082.000
2098.000
2087.000
2098.000
2096.000
2092.000
2068.000
2139.000
2105.000
2119.000
2102.000
2086.000
2118.000
2156.000
2075.000
2164.000
2179.000
2274.000
2237.000
2394.000
2229.000
2399.000
2494.000
2409.000
2409.000
2345.000
2336.000
2495.000
2245.000
2401.000
2288.000
2257.000
2593.000
2175.000
2399.000
2301.000
2370.000
2423.000
2313.000
2478.000
2467.000
2380.000
2520.000
2421.000
2240.000
2444.000
2175.000
2603.000
2178.000
2487.000
2482.000
2347.000
2287.000
2389.000
2065.000
2844.000
2159.000
2449.000
2799.000
2320.000
2392.000
2051.000
2877.000
2213.000
2451.000
2411.000
2311.000
2388.000
2043.000
2699.000
2293.000
2458.000
2391.000
2320.000
2232.000
2189.000
2569.000
2212.000
2523.000
2423.000
2400.000
2117.000
2639.000
2227.000
2463.000
2433.000
2406.000
2131.000
2722.000
2268.000
2392.000
2425.000
2352.000
2252.000
2214.000
2541.000
2303.000
2398.000
2436.000
2343.000
2276.000
2368.000
2495.000
2249.000
2337.000
2460.000
2298.000
2383.000
2285.000
2303.000
2383.000
2303.000
2328.000
2320.000
2342.000
2366.000
2242.000
2367.000
2369.000
2261.000
2281.000
2302.000
2274.000
2256.000
2278.000
2315.000
2231.000
2139.000
2124.000
2456.000
2320.000
2165.000
2225.000
2647.000
2265.000
2373.000
2272.000
2310.000
2359.000
2479.000
2273.000
2271.000
2295.000
2237.000
2334.000
2261.000
2258.000
2353.000
2292.000
2337.000
2282.000
2297.000
2507.000
2397.000
2328.000
2116.000
2270.000
2323.000
2261.000
2399.000
2587.000
2291.000
2448.000
2469.000
2383.000
2457.000
2279.000
2345.000
2359.000
2430.000
2283.000
2393.000
2497.000
2329.000
2309.000
2349.000
2254.000
2281.000
2307.000
2218.000
2335.000
2277.000
2294.000
2396.000
2540.000
2240.000
2517.000
2375.000
2407.000
2338.000
2242.000
2230.000
2601.000
2215.000
2443.000
2337.000
2508.000
2387.000
2311.000
2266.000
2311.000
2258.000
2255.000
2257.000
2206.000
2248.000
2258.000
2284.000
2339.000
2328.000
2331.000
2326.000
2324.000
2331.000
2340.000
2338.000
2328.000
2342.000
2387.000
2358.000
2353.000
2264.000
2239.000
2195.000
2189.000
2198.000
2210.000
2236.000
2263.000
2297.000
2336.000
2385.000
2402.000
2405.000
2418.000
2437.000
2458.000
2483.000
2490.000
2500.000
2487.000
2440.000
2309.000
2384.000
2385.000
2387.000
2382.000
2368.000
2384.000
2355.000
2431.000
2396.000
2384.000
2749.000
2396.000
2207.000
2293.000
2206.000
2000.000
1999.000
2051.000
2137.000
1923.000
1925.000
2007.000
1945.000
1963.000
2223.000
2345.000
2490.000
2372.000
2341.000
2395.000
2471.000
2486.000
2356.000
2041.000
1785.000
1552.000
1570.000
1670.000
1768.000
1793.000
1788.000
1799.000
1683.000
1697.000
1740.000
1743.000
1739.000
1780.000
1693.000
1739.000
1740.000
1896.000
1525.000
1599.000
1644.000
1636.000
1511.000
1580.000
1605.000
1583.000
1588.000
1646.000
1737.000
1802.000
1919.000
1967.000
1989.000
2011.000
2029.000
2012.000
2017.000
2015.000
2028.000
2030.000
2044.000
2091.000
2153.000
2092.000
2199.000
2182.000
2278.000
2252.000
2276.000
2361.000
2427.000
2479.000
2414.000
2438.000
2426.000
2425.000
2491.000
2506.000
2497.000
2497.000
2496.000
2497.000
2495.000
2497.000
2495.000
2444.000
2480.000
2455.000
2497.000
2263.000
2074.000
2138.000
2317.000
2069.000
2150.000
2107.000
2108.000
2104.000
2100.000
2101.000
2087.000
2094.000
2066.000
2122.000
2049.000
2236.000
2248.000
2213.000
2271.000
2274.000
2255.000
2234.000
2223.000
2234.000
2164.000
2183.000
2197.000
2194.000
2208.000
2214.000
2225.000
2194.000
2198.000
2172.000
2137.000
2124.000
2124.000
2109.000
2120.000
2097.000
2193.000
2148.000
2130.000
2111.000
2101.000
2089.000
2063.000
2047.000
2011.000
1971.000
1949.000
1958.000
2050.000
1951.000
1952.000
1975.000
2033.000
2037.000
2035.000
2037.000
2034.000
2038.000
2037.000
2035.000
2037.000
2033.000
2088.000
1980.000
1883.000
1912.000
1912.000
1922.000
2014.000
2011.000
1998.000
1999.000
2003.000
1997.000
2002.000
1999.000
2001.000
2003.000
2006.000
2000.000
2002.000
2006.000
2001.000
2000.000
2003.000
2002.000
2007.000
2001.000
2002.000
2002.000
2000.000
2002.000
2005.000
1999.000
2005.000
2004.000
2011.000
2008.000
1999.000
2003.000
2005.000
2000.000
2002.000
2005.000
1999.000
2000.000
2005.000
